File: Images/deconvolutions/deconv_0.msa
#FORMAT      : EMSA/MAS Spectral Data File
#VERSION     : 1.0
#TITLE       : LiF_before_transformation_30kV
#DATE        :
#TIME        :
#OWNER       :
#NPOINTS     : 363
#NCOLUMNS    : 1
#XUNITS      : eV
#YUNITS      :
#DATATYPE    : XY
#XPERCHAN    : 0.111111
#OFFSET      : 44.1668
#SIGNALTYPE  : EELS
#XLABEL      :
#COMMENT     : File created by HyperSpy version 1.3
#BEAMKV      : 30.0
#CONVANGLE   : 2.0
#COLLANGLE   : 5.0
#SPECTRUM,    : Spectral Data Starts Here
44.1668, -0.00219258
44.2779, -0.00694873
44.389, 0.00685652
44.5001, -0.000282167
44.6112, -0.000455786
44.7223, -0.00416229
44.8334, -0.00473324
44.9446, -0.00534226
45.0557, -0.00395966
45.1668, -0.00259939
45.2779, -0.00470975
45.389, -0.00542287
45.5001, -0.00617289
45.6112, 0.00196696
45.7223, 0.0100704
45.8334, 0.000925417
45.9446, -0.00824028
46.0557, -0.00567705
46.1668, -0.00313412
46.2779, -0.0015726
46.389, -0.00090073
46.5001, 0.0066638
46.6112, 0.00430575
46.7223, 0.00192843
46.8334, 0.000966384
46.9446, -0.00135734
47.0557, -0.00371501
47.1668, -0.00548081
47.2779, -0.00728019
47.389, -0.00836525
47.5001, -0.00759139
47.6112, -0.0114435
47.7223, -0.0106287
47.8334, -0.00839693
47.9446, -0.00813555
48.0557, -0.00900514
48.1668, -0.00990686
48.2779, -0.00386719
48.389, 0.000630024
48.5001, -0.00291539
48.6112, -0.00649229
48.7223, 0.000184075
48.8334, 0.00682927
48.9446, 0.0147863
49.0557, 0.0116648
49.1668, 0.00846697
49.2779, 0.00525379
49.389, 0.00469581
49.5001, 0.00528251
49.6112, 0.00773122
49.7223, 0.00592322
49.8334, 0.0040854
49.9446, 0.0119837
50.0557, 0.00952203
50.1668, 0.0040097
50.2779, -0.00151665
50.389, -0.00388299
50.5001, -0.00157857
50.6112, 0.000696986
50.7223, -0.00236635
50.8334, -7.18672e-05
50.9446, 0.00227042
51.0557, 0.00319576
51.1668, 0.00409286
51.2779, 0.00964636
51.389, 0.00479572
51.5001, 0.000939554
51.6112, -0.00108278
51.7223, -0.000615023
51.8334, -0.0045694
51.9446, -0.00922259
52.0557, -0.0124535
52.1668, -0.00530493
52.2779, -0.00202873
52.389, -0.00460845
52.5001, -0.00794748
52.6112, -0.00652194
52.7223, -0.00982284
52.8334, -0.0129214
52.9446, -0.0160312
53.0557, -0.00956937
53.1668, -0.0117552
53.2779, -0.0125938
53.389, -0.0105745
53.5001, -0.0106564
53.6112, -0.0107642
53.7223, -0.00972281
53.8334, -0.0137578
53.9446, -0.00765589
54.0557, -0.00315113
54.1668, -0.0075983
54.2779, -0.0120708
54.389, -0.00788608
54.5001, -0.0106389
54.6112, -0.00322365
54.7223, -0.00704878
54.8334, -0.0108988
54.9446, -0.00577075
55.0557, -0.000667422
55.1668, -0.00436265
55.2779, -0.00561046
55.389, -0.00686747
55.5001, 0.000686108
55.6112, -0.00180979
55.7223, 0.00185
55.8334, 0.00605022
55.9446, 0.000964143
56.0557, -0.00414592
56.1668, 0.00346137
56.2779, 0.00971729
56.389, 0.0107003
56.5001, 0.00808906
56.6112, 0.00888744
56.7223, 0.00743445
56.8334, 0.00998636
56.9446, 0.0134914
57.0557, 0.016317
57.1668, 0.0173035
57.2779, 0.016222
57.389, 0.0154837
57.5001, 0.0208106
57.6112, 0.0246496
57.7223, 0.0243762
57.8334, 0.0252397
57.9446, 0.0236694
58.0557, 0.0220916
58.1668, 0.0252213
58.2779, 0.0283438
58.389, 0.0251722
58.5001, 0.0325067
58.6112, 0.034463
58.7223, 0.0322311
58.8334, 0.032281
58.9446, 0.035574
59.0557, 0.0382345
59.1668, 0.0377599
59.2779, 0.0390791
59.389, 0.0390639
59.5001, 0.0440011
59.6112, 0.0469328
59.7223, 0.0509412
59.8334, 0.0479849
59.9446, 0.0560238
60.0557, 0.0640411
60.1668, 0.0722197
60.2779, 0.0743189
60.389, 0.0794025
60.5001, 0.0860515
60.6112, 0.100736
60.7223, 0.115399
60.8334, 0.126897
60.9446, 0.143745
61.0557, 0.154651
61.1668, 0.168588
61.2779, 0.18055
61.389, 0.202822
61.5001, 0.209691
61.6112, 0.205584
61.7223, 0.20147
61.8334, 0.19607
61.9446, 0.185994
62.0557, 0.175897
62.1668, 0.160363
62.2779, 0.159838
62.389, 0.149999
62.5001, 0.14014
62.6112, 0.137554
62.7223, 0.131392
62.8334, 0.125209
62.9446, 0.11867
63.0557, 0.112111
63.1668, 0.103425
63.2779, 0.0947195
63.389, 0.10084
63.5001, 0.0985633
63.6112, 0.0977767
63.7223, 0.0954288
63.8334, 0.0993778
63.9446, 0.0985153
64.0557, 0.0956795
64.1668, 0.103459
64.2779, 0.111219
64.389, 0.106339
64.5001, 0.101455
64.6112, 0.106346
64.7223, 0.111234
64.8334, 0.108151
64.9446, 0.108085
65.0557, 0.109556
65.1668, 0.104582
65.2779, 0.102763
65.389, 0.108844
65.5001, 0.108816
65.6112, 0.108113
65.7223, 0.110686
65.8334, 0.109226
65.9446, 0.107762
66.0557, 0.109727
66.1668, 0.114404
66.2779, 0.117765
66.389, 0.118298
66.5001, 0.11869
66.6112, 0.114667
66.7223, 0.119201
66.8334, 0.121732
66.9446, 0.119621
67.0557, 0.117139
67.1668, 0.119719
67.2779, 0.122295
67.389, 0.119846
67.5001, 0.119378
67.6112, 0.117227
67.7223, 0.120948
67.8334, 0.128219
67.9446, 0.129017
68.0557, 0.12914
68.1668, 0.12926
68.2779, 0.128322
68.389, 0.124039
68.5001, 0.124468
68.6112, 0.130752
68.7223, 0.137033
68.8334, 0.131943
68.9446, 0.127779
69.0557, 0.1297
69.1668, 0.13055
69.2779, 0.129153
69.389, 0.127738
69.5001, 0.133948
69.6112, 0.125278
69.7223, 0.116589
69.8334, 0.116197
69.9446, 0.122074
70.0557, 0.119326
70.1668, 0.113431
70.2779, 0.107533
70.389, 0.107308
70.5001, 0.0985959
70.6112, 0.0898653
70.7223, 0.0847021
70.8334, 0.0863718
70.9446, 0.089549
71.0557, 0.0846664
71.1668, 0.0797653
71.2779, 0.0785081
71.389, 0.0760271
71.5001, 0.0806538
71.6112, 0.0723073
71.7223, 0.0639426
71.8334, 0.0656611
71.9446, 0.0719848
72.0557, 0.0711797
72.1668, 0.0664195
72.2779, 0.0616412
72.389, 0.0640471
72.5001, 0.0612772
72.6112, 0.0571618
72.7223, 0.0553323
72.8334, 0.0557432
72.9446, 0.0583027
73.0557, 0.0624007
73.1668, 0.0598735
73.2779, 0.0552836
73.389, 0.0559859
73.5001, 0.058364
73.6112, 0.0533846
73.7223, 0.0523546
73.8334, 0.0503301
73.9446, 0.052194
74.0557, 0.0540248
74.1668, 0.0522672
74.2779, 0.0576177
74.389, 0.0540086
74.5001, 0.0517397
74.6112, 0.0539392
74.7223, 0.0515891
74.8334, 0.0465966
74.9446, 0.0518404
75.0557, 0.0508104
75.1668, 0.0505408
75.2779, 0.0491854
75.389, 0.0517797
75.5001, 0.0545547
75.6112, 0.0506592
75.7223, 0.0492027
75.8334, 0.0478812
75.9446, 0.0535765
76.0557, 0.0550427
76.1668, 0.0536227
76.2779, 0.0531922
76.389, 0.0546974
76.5001, 0.0532705
76.6112, 0.051521
76.7223, 0.0501964
76.8334, 0.0518757
76.9446, 0.0482579
77.0557, 0.0501922
77.1668, 0.0538791
77.2779, 0.0575638
77.389, 0.0532964
77.5001, 0.057572
77.6112, 0.0595108
77.7223, 0.0541841
77.8334, 0.0558288
77.9446, 0.0573645
78.0557, 0.0586693
78.1668, 0.0588581
78.2779, 0.0583735
78.389, 0.0584514
78.5001, 0.059214
78.6112, 0.0568769
78.7223, 0.0555755
78.8334, 0.0609403
78.9446, 0.0619238
79.0557, 0.0591973
79.1668, 0.0564537
79.2779, 0.0567904
79.389, 0.0548974
79.5001, 0.0572293
79.6112, 0.0591319
79.7223, 0.0568823
79.8334, 0.0586744
79.9446, 0.0604646
80.0557, 0.0598878
80.1668, 0.0596754
80.2779, 0.0570349
80.389, 0.0553998
80.5001, 0.0603089
80.6112, 0.0616456
80.7223, 0.0571669
80.8334, 0.0575692
80.9446, 0.0586412
81.0557, 0.0614815
81.1668, 0.0589488
81.2779, 0.0581234
81.389, 0.060638
81.5001, 0.0600228
81.6112, 0.0583225
81.7223, 0.0542858
81.8334, 0.0512851
81.9446, 0.0555613
82.0557, 0.0598358
82.1668, 0.0583865
82.2779, 0.055608
82.389, 0.0600148
82.5001, 0.0618261
82.6112, 0.0586917
82.7223, 0.0555405
82.8334, 0.0544171
82.9446, 0.0576563
83.0557, 0.0585134
83.1668, 0.0612
83.2779, 0.0565913
83.389, 0.0559789
83.5001, 0.058432
83.6112, 0.0568246
83.7223, 0.0565585
83.8334, 0.057298
83.9446, 0.0562049
84.0557, 0.0594439
84.1668, 0.060423
84.2779, 0.0565483
84.389, 0.0578754
#ENDOFDATA   : End Of Data and File